/*--------------------------------*- C++ -*----------------------------------*\
| =========                 |                                                 |
| \\      /  F ield         | OpenFOAM: The Open Source CFD Toolbox           |
|  \\    /   O peration     | Version:  2406                                  |
|   \\  /    A nd           | Website:  www.openfoam.com                      |
|    \\/     M anipulation  |                                                 |
\*---------------------------------------------------------------------------*/
FoamFile
{
    version     2.0;
    format      ascii;
    arch        "LSB;label=32;scalar=64";
    class       volScalarField;
    location    "2e-07/dielectric";
    object      voltExt;
}
// * * * * * * * * * * * * * * * * * * * * * * * * * * * * * * * * * * * * * //

dimensions      [1 2 -3 0 0 -1 0];

internalField   nonuniform List<scalar> 
3626
(
39.5631
38.4857
37.4076
36.3289
35.2495
34.1699
33.0898
32.009
30.928
29.8465
28.7644
27.6821
26.5995
25.5163
24.4328
23.3491
22.2651
21.1807
20.0962
19.0114
17.9262
16.8409
15.7555
14.6696
13.5836
12.4976
11.4114
10.3249
9.23849
8.15195
7.06512
5.9784
4.89161
3.80455
2.71746
1.63053
0.543578
39.5774
38.4994
37.4208
36.3415
35.2617
34.1815
33.1009
32.0197
30.9382
29.8562
28.7737
27.691
26.608
25.5243
24.4404
23.3564
22.272
21.1872
20.1023
19.0171
17.9315
16.8459
15.7601
14.6739
13.5876
12.5012
11.4147
10.3279
9.24116
8.15431
7.06715
5.98012
4.89301
3.80564
2.71823
1.63099
0.543734
39.6033
38.5243
37.4447
36.3644
35.2836
34.2026
33.1211
32.039
30.9566
29.8739
28.7905
27.707
26.6232
25.5388
24.4542
23.3694
22.2844
21.1988
20.1133
19.0275
17.9412
16.855
15.7685
14.6817
13.5947
12.5078
11.4207
10.3333
9.24597
8.15853
7.07081
5.9832
4.89553
3.8076
2.71963
1.63183
0.544013
39.6384
38.558
37.4771
36.3955
35.3135
34.2312
33.1485
32.0652
30.9817
29.8978
28.8134
27.7288
26.644
25.5586
24.4729
23.3872
22.3012
21.2147
20.1282
19.0415
17.9544
16.8673
15.78
14.6923
13.6045
12.5167
11.4288
10.3406
9.2525
8.16428
7.07577
5.98739
4.89895
3.81026
2.72153
1.63297
0.544391
39.6804
38.5983
37.5158
36.4327
35.3491
34.2653
33.1812
32.0965
31.0116
29.9264
28.8407
27.7548
26.6687
25.5821
24.4953
23.4083
22.3212
21.2336
20.146
19.0583
17.9701
16.8819
15.7936
14.705
13.6161
12.5274
11.4385
10.3494
9.26029
8.17114
7.0817
5.9924
4.90304
3.81343
2.72379
1.63433
0.544844
39.7273
38.6434
37.5591
36.4742
35.3889
34.3035
33.2177
32.1314
31.045
29.9583
28.8712
27.7839
26.6964
25.6084
24.5203
23.432
22.3436
21.2548
20.166
19.077
17.9876
16.8983
15.8089
14.7191
13.6292
12.5393
11.4494
10.3591
9.269
8.17879
7.08832
5.99798
4.9076
3.81698
2.72632
1.63584
0.545349
39.7774
38.6915
37.6053
36.5185
35.4314
34.3442
33.2567
32.1687
31.0807
29.9924
28.9037
27.8149
26.7259
25.6365
24.5469
23.4573
22.3675
21.2774
20.1872
19.097
18.0063
16.9158
15.8251
14.7341
13.643
12.552
11.4609
10.3695
9.27828
8.18696
7.09538
6.00394
4.91247
3.82075
2.72901
1.63746
0.545888
39.8291
38.7412
37.653
36.5643
35.4753
34.3863
33.297
32.2073
31.1176
30.0277
28.9373
27.847
26.7564
25.6655
24.5744
23.4834
22.3922
21.3007
20.2092
19.1176
18.0257
16.9339
15.8419
14.7497
13.6574
12.5651
11.4729
10.3803
9.28787
8.1954
7.10267
6.0101
4.91749
3.82466
2.7318
1.63913
0.546444
39.8814
38.7914
37.7012
36.6105
35.5197
34.4288
33.3377
32.2463
31.1548
30.0632
28.9712
27.8793
26.7872
25.6948
24.6023
23.5098
22.4172
21.3242
20.2314
19.1385
18.0452
16.9521
15.8589
14.7654
13.6718
12.5784
11.4849
10.3912
9.29756
8.20391
7.11003
6.01631
4.92257
3.8286
2.73461
1.64081
0.547006
39.9333
38.8412
37.749
36.6564
35.5637
34.4709
33.3781
32.2849
31.1918
30.0985
29.0049
27.9114
26.8178
25.7239
24.6298
23.5359
22.4419
21.3476
20.2534
19.1591
18.0646
16.9702
15.8757
14.781
13.6862
12.5915
11.4968
10.4019
9.30715
8.21235
7.11732
6.02247
4.9276
3.8325
2.7374
1.64248
0.547562
39.9839
38.8899
37.7957
36.7012
35.6066
34.5121
33.4175
32.3226
31.2278
30.1329
29.0378
27.9427
26.8476
25.7522
24.6567
23.5614
22.466
21.3704
20.2749
19.1793
18.0835
16.9878
15.8921
14.7962
13.7002
12.6044
11.5085
10.4124
9.31652
8.22059
7.12445
6.02848
4.93251
3.83632
2.74012
1.64411
0.548106
40.0329
38.9369
37.8408
36.7445
35.6481
34.5519
33.4556
32.359
31.2627
30.1662
29.0695
27.973
26.8764
25.7796
24.6827
23.5861
22.4893
21.3924
20.2956
19.1988
18.1017
17.0048
15.9079
14.8108
13.7137
12.6167
11.5198
10.4226
9.32556
8.22855
7.13132
6.03429
4.93725
3.84
2.74274
1.64569
0.54863
40.0796
38.9818
37.884
36.7859
35.6878
34.5899
33.492
32.3939
31.2959
30.198
29.0999
28.0019
26.9039
25.8058
24.7076
23.6096
22.5116
21.4134
20.3154
19.2174
18.1191
17.0211
15.9231
14.8248
13.7266
12.6286
11.5305
10.4323
9.33421
8.23615
7.13789
6.03984
4.94178
3.84352
2.74525
1.64719
0.549132
40.124
39.0244
37.9249
36.8251
35.7254
34.6259
33.5265
32.4269
31.3275
30.2282
29.1286
28.0293
26.9301
25.8306
24.7311
23.6319
22.5327
21.4333
20.3342
19.235
18.1357
17.0366
15.9374
14.8381
13.7389
12.6398
11.5407
10.4415
9.3424
8.24336
7.14412
6.0451
4.94607
3.84685
2.74763
1.64862
0.549607
40.1658
39.0645
37.9634
36.8621
35.7608
34.6599
33.559
32.458
31.3572
30.2566
29.1557
28.0551
26.9546
25.854
24.7533
23.653
22.5526
21.4521
20.3519
19.2516
18.1512
17.0511
15.951
14.8507
13.7504
12.6503
11.5503
10.4501
9.35012
8.25015
7.14999
6.05005
4.95012
3.84999
2.74987
1.64996
0.550055
40.2049
39.1021
37.9994
36.8966
35.794
34.6917
33.5894
32.4871
31.3851
30.2831
29.1811
28.0793
26.9776
25.8758
24.7741
23.6726
22.5712
21.4697
20.3684
19.2672
18.1658
17.0647
15.9636
14.8624
13.7612
12.6602
11.5593
10.4582
9.35734
8.2565
7.15548
6.05468
4.9539
3.85293
2.75197
1.65122
0.550474
40.2414
39.1371
38.033
36.9289
35.8249
34.7212
33.6178
32.5142
31.411
30.3079
29.2047
28.1018
26.9991
25.8962
24.7934
23.6909
22.5886
21.486
20.3838
19.2817
18.1794
17.0773
15.9754
14.8733
13.7712
12.6694
11.5677
10.4657
9.36406
8.26242
7.16059
6.059
4.95743
3.85567
2.75392
1.65239
0.550864
40.2751
39.1695
38.0641
36.9587
35.8535
34.7487
33.644
32.5393
31.435
30.3308
29.2266
28.1227
27.0189
25.9151
24.8113
23.7079
22.6046
21.5012
20.3981
19.2951
18.1919
17.0891
15.9863
14.8834
13.7805
12.678
11.5754
10.4727
9.3703
8.2679
7.16534
6.063
4.9607
3.85821
2.75573
1.65348
0.551226
40.3064
39.1995
38.0929
36.9863
35.88
34.774
33.6683
32.5626
31.4572
30.352
29.2468
28.142
27.0373
25.9325
24.8279
23.7236
22.6195
21.5152
20.4113
19.3075
18.2036
17.0999
15.9964
14.8927
13.7891
12.6858
11.5826
10.4792
9.37606
8.27297
7.16971
6.0667
4.96372
3.86055
2.75741
1.65448
0.55156
40.3351
39.2271
38.1194
37.0117
35.9043
34.7974
33.6906
32.5839
31.4776
30.3715
29.2654
28.1597
27.0542
25.9486
24.8431
23.7381
22.6331
21.5281
20.4235
19.3189
18.2143
17.1099
16.0057
14.9013
13.7971
12.6931
11.5892
10.4851
9.38136
8.27763
7.17375
6.0701
4.9665
3.86271
2.75895
1.6554
0.551868
40.3615
39.2525
38.1437
37.0351
35.9267
34.8188
33.7112
32.6036
31.4964
30.3895
29.2825
28.176
27.0697
25.9633
24.8571
23.7513
22.6457
21.54
20.4346
19.3294
18.2241
17.1191
16.0142
14.9092
13.8043
12.6998
11.5952
10.4906
9.38623
8.28191
7.17745
6.07323
4.96905
3.86469
2.76036
1.65625
0.55215
40.3857
39.2757
38.166
37.0564
35.9472
34.8384
33.73
32.6215
31.5136
30.4059
29.2982
28.1909
27.0839
25.9768
24.87
23.7635
22.6572
21.5508
20.4448
19.339
18.2331
17.1275
16.022
14.9165
13.811
12.7059
11.6008
10.4956
9.39068
8.28583
7.18084
6.07609
4.97138
3.86651
2.76165
1.65703
0.552409
40.4078
39.2969
38.1864
37.076
35.9659
34.8564
33.7471
32.638
31.5293
30.4209
29.3125
28.2046
27.0969
25.9892
24.8817
23.7746
22.6677
21.5607
20.4541
19.3477
18.2413
17.1351
16.0291
14.9231
13.8171
12.7114
11.6059
10.5002
9.39476
8.28942
7.18393
6.0787
4.97352
3.86816
2.76284
1.65774
0.552645
40.4279
39.3162
38.2049
37.0938
35.983
34.8727
33.7628
32.653
31.5436
30.4346
29.3255
28.217
27.1087
26.0004
24.8923
23.7847
22.6772
21.5698
20.4627
19.3557
18.2488
17.1421
16.0356
14.9291
13.8226
12.7165
11.6105
10.5043
9.39847
8.29268
7.18675
6.08109
4.97546
3.86967
2.76392
1.65838
0.552861
40.4463
39.3339
38.2219
37.11
35.9985
34.8876
33.7771
32.6666
31.5567
30.447
29.3374
28.2283
27.1195
26.0107
24.9021
23.7939
22.6859
21.578
20.4704
19.363
18.2556
17.1485
16.0416
14.9346
13.8277
12.7211
11.6147
10.5081
9.40185
8.29566
7.18933
6.08326
4.97724
3.87105
2.7649
1.65897
0.553057
40.463
39.3499
38.2372
37.1248
36.0127
34.9012
33.79
32.679
31.5685
30.4583
29.3482
28.2386
27.1293
26.02
24.9109
23.8023
22.6939
21.5855
20.4775
19.3696
18.2618
17.1543
16.047
14.9396
13.8323
12.7253
11.6185
10.5116
9.40493
8.29836
7.19166
6.08523
4.97885
3.8723
2.76579
1.65951
0.553235
40.4781
39.3645
38.2512
37.1382
36.0255
34.9135
33.8018
32.6903
31.5793
30.4686
29.3581
28.248
27.1382
26.0284
24.9189
23.8099
22.7011
21.5923
20.4839
19.3756
18.2674
17.1596
16.0519
14.9441
13.8365
12.7292
11.622
10.5147
9.40772
8.30082
7.19379
6.08702
4.98031
3.87344
2.7666
1.65999
0.553397
40.4919
39.3777
38.2639
37.1503
36.0372
34.9247
33.8125
32.7005
31.5891
30.478
29.367
28.2565
27.1462
26.0361
24.9262
23.8168
22.7076
21.5984
20.4897
19.3811
18.2725
17.1643
16.0563
14.9482
13.8403
12.7326
11.6251
10.5175
9.41025
8.30305
7.19571
6.08865
4.98164
3.87447
2.76734
1.66043
0.553544
40.5043
39.3896
38.2754
37.1613
36.0477
34.9348
33.8222
32.7098
31.5979
30.4864
29.375
28.2641
27.1536
26.0431
24.9328
23.823
22.7135
21.604
20.4949
19.386
18.2772
17.1686
16.0603
14.9519
13.8437
12.7358
11.628
10.5201
9.41255
8.30507
7.19746
6.09012
4.98284
3.8754
2.768
1.66083
0.553677
40.5156
39.4005
38.2858
37.1713
36.0573
34.9439
33.831
32.7182
31.606
30.4941
29.3823
28.2711
27.1602
26.0494
24.9388
23.8287
22.7189
21.6091
20.4997
19.3905
18.2814
17.1726
16.064
14.9553
13.8468
12.7386
11.6306
10.5225
9.41463
8.30689
7.19904
6.09145
4.98393
3.87625
2.76861
1.66119
0.553798
40.5261
39.4105
38.2954
37.1806
36.0662
34.9524
33.8391
32.7259
31.6134
30.5012
29.3891
28.2776
27.1663
26.0552
24.9443
23.834
22.7238
21.6137
20.5041
19.3947
18.2852
17.1762
16.0673
14.9584
13.8497
12.7413
11.633
10.5246
9.41655
8.30858
7.2005
6.09269
4.98494
3.87703
2.76916
1.66153
0.553909
40.536
39.42
38.3045
37.1893
36.0746
34.9605
33.8468
32.7333
31.6204
30.5079
29.3955
28.2837
27.1721
26.0607
24.9496
23.8389
22.7285
21.6182
20.5083
19.3986
18.2889
17.1796
16.0705
14.9614
13.8524
12.7438
11.6352
10.5267
9.41837
8.31019
7.20188
6.09386
4.98589
3.87777
2.76969
1.66185
0.554015
40.5454
39.4291
38.3132
37.1976
36.0825
34.9681
33.8541
32.7403
31.6271
30.5143
29.4016
28.2895
27.1777
26.066
24.9546
23.8436
22.733
21.6224
20.5123
19.4023
18.2924
17.1829
16.0736
14.9642
13.855
12.7461
11.6374
10.5286
9.4201
8.31171
7.2032
6.09497
4.9868
3.87848
2.7702
1.66215
0.554115
40.5543
39.4376
38.3214
37.2055
36.0901
34.9753
33.861
32.7469
31.6334
30.5203
29.4074
28.295
27.1829
26.0709
24.9593
23.8481
22.7372
21.6264
20.516
19.4059
18.2957
17.186
16.0764
14.9668
13.8574
12.7484
11.6394
10.5304
9.42175
8.31315
7.20445
6.09602
4.98766
3.87915
2.77067
1.66243
0.554211
40.5628
39.4457
38.3292
37.2129
36.0972
34.9822
33.8676
32.7532
31.6394
30.526
29.4128
28.3002
27.1878
26.0756
24.9637
23.8523
22.7412
21.6302
20.5196
19.4092
18.2988
17.1889
16.0791
14.9694
13.8597
12.7505
11.6414
10.5322
9.42329
8.31452
7.20562
6.09701
4.98847
3.87978
2.77112
1.6627
0.5543
40.5707
39.4533
38.3365
37.2199
36.1039
34.9886
33.8737
32.759
31.645
30.5314
29.4179
28.305
27.1925
26.08
24.9679
23.8563
22.745
21.6337
20.5229
19.4123
18.3018
17.1916
16.0817
14.9717
13.8619
12.7525
11.6432
10.5338
9.42475
8.31579
7.20673
6.09795
4.98923
3.88037
2.77154
1.66295
0.554385
40.578
39.4604
38.3432
37.2264
36.1102
34.9946
33.8794
32.7645
31.6503
30.5364
29.4227
28.3096
27.1968
26.0841
24.9718
23.86
22.7485
21.637
20.526
19.4152
18.3045
17.1942
16.0841
14.9739
13.8639
12.7543
11.6449
10.5353
9.4261
8.31699
7.20776
6.09882
4.98994
3.88092
2.77194
1.66319
0.554463
40.5849
39.4669
38.3495
37.2325
36.1159
35.0001
33.8847
32.7696
31.6551
30.541
29.4271
28.3138
27.2008
26.088
24.9754
23.8634
22.7517
21.6401
20.5289
19.418
18.307
17.1966
16.0863
14.976
13.8658
12.7561
11.6464
10.5367
9.42736
8.31809
7.20872
6.09962
4.9906
3.88143
2.7723
1.66341
0.554536
40.5912
39.473
38.3554
37.2381
36.1213
35.0052
33.8896
32.7743
31.6596
30.5453
29.4312
28.3177
27.2045
26.0915
24.9788
23.8666
22.7547
21.6429
20.5315
19.4205
18.3094
17.1987
16.0883
14.9778
13.8676
12.7576
11.6479
10.538
9.42852
8.31911
7.2096
6.10037
4.99121
3.8819
2.77264
1.66361
0.554603
40.5969
39.4785
38.3606
37.2431
36.1262
35.0099
33.8941
32.7786
31.6637
30.5492
29.4349
28.3212
27.2079
26.0947
24.9818
23.8695
22.7574
21.6455
20.534
19.4227
18.3115
17.2007
16.0901
14.9796
13.8691
12.7591
11.6492
10.5392
9.42957
8.32004
7.2104
6.10105
4.99176
3.88233
2.77294
1.6638
0.554665
40.6021
39.4835
38.3654
37.2477
36.1305
35.0141
33.8981
32.7824
31.6673
30.5527
29.4383
28.3244
27.2109
26.0976
24.9846
23.8721
22.7599
21.6478
20.5362
19.4248
18.3134
17.2025
16.0918
14.9811
13.8706
12.7604
11.6504
10.5403
9.43053
8.32088
7.21112
6.10166
4.99226
3.88272
2.77322
1.66396
0.55472
40.6067
39.4879
38.3697
37.2518
36.1345
35.0178
33.9017
32.7858
31.6706
30.5558
29.4412
28.3273
27.2136
26.1002
24.987
23.8744
22.7621
21.6499
20.5381
19.4266
18.3152
17.2041
16.0933
14.9825
13.8718
12.7616
11.6514
10.5412
9.43138
8.32163
7.21177
6.1022
4.99271
3.88307
2.77347
1.66411
0.554769
40.6108
39.4918
38.3734
37.2554
36.1379
35.0211
33.9049
32.7889
31.6735
30.5586
29.4439
28.3298
27.216
26.1024
24.9892
23.8764
22.764
21.6517
20.5398
19.4282
18.3167
17.2055
16.0946
14.9837
13.873
12.7626
11.6524
10.5421
9.43213
8.32229
7.21234
6.10268
4.9931
3.88337
2.77369
1.66424
0.554813
40.6143
39.4952
38.3767
37.2585
36.1409
35.024
33.9076
32.7915
31.676
30.561
29.4461
28.3319
27.2181
26.1044
24.991
23.8782
22.7657
21.6532
20.5413
19.4296
18.318
17.2067
16.0957
14.9847
13.8739
12.7635
11.6532
10.5428
9.43277
8.32285
7.21283
6.1031
4.99344
3.88363
2.77387
1.66435
0.55485
40.6172
39.498
38.3793
37.2611
36.1433
35.0263
33.9099
32.7936
31.6781
30.5629
29.448
28.3337
27.2198
26.106
24.9926
23.8796
22.7671
21.6545
20.5425
19.4308
18.319
17.2078
16.0967
14.9856
13.8747
12.7642
11.6538
10.5434
9.4333
8.32332
7.21323
6.10344
4.99372
3.88385
2.77403
1.66444
0.554881
40.6196
39.5002
38.3815
37.2631
36.1453
35.0282
33.9117
32.7954
31.6797
30.5645
29.4495
28.3351
27.2211
26.1073
24.9938
23.8808
22.7682
21.6556
20.5435
19.4317
18.3199
17.2086
16.0974
14.9863
13.8754
12.7648
11.6544
10.5439
9.43373
8.3237
7.21356
6.10372
4.99394
3.88402
2.77415
1.66452
0.554906
40.6213
39.5019
38.3831
37.2647
36.1468
35.0297
33.913
32.7967
31.681
30.5657
29.4507
28.3362
27.2222
26.1083
24.9947
23.8817
22.769
21.6564
20.5443
19.4324
18.3206
17.2092
16.098
14.9868
13.8758
12.7652
11.6548
10.5442
9.43406
8.32398
7.21381
6.10392
4.99411
3.88416
2.77425
1.66458
0.554925
40.6225
39.5031
38.3842
37.2657
36.1478
35.0306
33.9139
32.7975
31.6818
30.5665
29.4514
28.3369
27.2229
26.1089
24.9953
23.8823
22.7696
21.6569
20.5447
19.4329
18.321
17.2096
16.0984
14.9872
13.8762
12.7655
11.655
10.5445
9.43427
8.32417
7.21397
6.10406
4.99422
3.88424
2.77431
1.66461
0.554937
40.6231
39.5036
38.3847
37.2662
36.1483
35.0311
33.9144
32.798
31.6822
30.5669
29.4518
28.3373
27.2232
26.1093
24.9956
23.8826
22.7698
21.6572
20.545
19.4331
18.3212
17.2098
16.0986
14.9874
13.8763
12.7657
11.6552
10.5446
9.43438
8.32427
7.21405
6.10413
4.99428
3.88429
2.77434
1.66463
0.554943
40.6231
39.5036
38.3847
37.2662
36.1483
35.0311
33.9144
32.798
31.6822
30.5669
29.4518
28.3373
27.2232
26.1093
24.9956
23.8826
22.7698
21.6572
20.545
19.4331
18.3212
17.2098
16.0986
14.9874
13.8763
12.7657
11.6552
10.5446
9.43438
8.32427
7.21405
6.10413
4.99428
3.88429
2.77434
1.66463
0.554943
40.6225
39.5031
38.3842
37.2657
36.1478
35.0306
33.9139
32.7975
31.6818
30.5665
29.4514
28.337
27.2229
26.1089
24.9953
23.8823
22.7696
21.6569
20.5447
19.4329
18.321
17.2096
16.0984
14.9872
13.8762
12.7655
11.655
10.5445
9.43427
8.32417
7.21397
6.10406
4.99422
3.88424
2.77431
1.66461
0.554937
40.6213
39.5019
38.3831
37.2647
36.1468
35.0297
33.913
32.7967
31.681
30.5657
29.4507
28.3362
27.2222
26.1083
24.9947
23.8817
22.769
21.6564
20.5443
19.4324
18.3206
17.2092
16.098
14.9868
13.8758
12.7652
11.6548
10.5442
9.43406
8.32399
7.21381
6.10392
4.99411
3.88416
2.77425
1.66458
0.554925
40.6196
39.5002
38.3815
37.2631
36.1453
35.0282
33.9117
32.7954
31.6797
30.5645
29.4495
28.3352
27.2211
26.1073
24.9938
23.8808
22.7682
21.6556
20.5435
19.4317
18.3199
17.2086
16.0974
14.9863
13.8754
12.7648
11.6544
10.5439
9.43374
8.3237
7.21356
6.10372
4.99394
3.88402
2.77415
1.66452
0.554906
40.6172
39.498
38.3794
37.2611
36.1433
35.0264
33.9099
32.7936
31.6781
30.5629
29.448
28.3337
27.2198
26.106
24.9926
23.8797
22.7671
21.6546
20.5425
19.4308
18.3191
17.2078
16.0967
14.9856
13.8747
12.7642
11.6538
10.5434
9.43331
8.32332
7.21324
6.10344
4.99372
3.88385
2.77403
1.66444
0.554881
40.6143
39.4952
38.3767
37.2585
36.1409
35.024
33.9076
32.7915
31.676
30.561
29.4461
28.3319
27.2181
26.1044
24.991
23.8782
22.7657
21.6533
20.5413
19.4296
18.318
17.2068
16.0958
14.9847
13.8739
12.7635
11.6532
10.5428
9.43277
8.32285
7.21283
6.1031
4.99344
3.88363
2.77387
1.66435
0.55485
40.6108
39.4919
38.3735
37.2554
36.1379
35.0212
33.9049
32.7889
31.6735
30.5586
29.4439
28.3298
27.216
26.1024
24.9892
23.8764
22.764
21.6517
20.5398
19.4282
18.3167
17.2055
16.0946
14.9837
13.873
12.7626
11.6524
10.5421
9.43213
8.32229
7.21234
6.10269
4.9931
3.88337
2.77369
1.66424
0.554813
40.6068
39.488
38.3697
37.2518
36.1345
35.0179
33.9017
32.7859
31.6706
30.5559
29.4413
28.3273
27.2136
26.1002
24.987
23.8744
22.7621
21.6499
20.5381
19.4266
18.3152
17.2041
16.0933
14.9825
13.8718
12.7616
11.6514
10.5412
9.43138
8.32163
7.21178
6.10221
4.99271
3.88307
2.77347
1.66411
0.55477
40.6021
39.4835
38.3655
37.2477
36.1306
35.0141
33.8981
32.7824
31.6674
30.5527
29.4383
28.3244
27.2109
26.0976
24.9846
23.8721
22.7599
21.6478
20.5362
19.4248
18.3135
17.2025
16.0918
14.9811
13.8706
12.7604
11.6504
10.5403
9.43053
8.32089
7.21113
6.10166
4.99227
3.88272
2.77322
1.66396
0.55472
40.5969
39.4785
38.3607
37.2432
36.1262
35.0099
33.8941
32.7786
31.6637
30.5492
29.4349
28.3212
27.2079
26.0947
24.9818
23.8695
22.7574
21.6455
20.534
19.4227
18.3115
17.2007
16.0902
14.9796
13.8691
12.7591
11.6492
10.5392
9.42958
8.32005
7.2104
6.10105
4.99177
3.88233
2.77295
1.6638
0.554665
40.5912
39.473
38.3554
37.2381
36.1213
35.0052
33.8897
32.7743
31.6596
30.5453
29.4312
28.3177
27.2045
26.0915
24.9788
23.8666
22.7547
21.6429
20.5316
19.4205
18.3094
17.1988
16.0883
14.9779
13.8676
12.7576
11.6479
10.538
9.42852
8.31912
7.2096
6.10037
4.99121
3.8819
2.77264
1.66361
0.554604
40.5849
39.467
38.3496
37.2325
36.116
35.0001
33.8848
32.7696
31.6551
30.541
29.4271
28.3138
27.2008
26.088
24.9755
23.8635
22.7517
21.6401
20.5289
19.418
18.3071
17.1966
16.0863
14.976
13.8658
12.7561
11.6464
10.5367
9.42737
8.3181
7.20872
6.09963
4.99061
3.88143
2.7723
1.66341
0.554537
40.5781
39.4604
38.3433
37.2265
36.1102
34.9946
33.8795
32.7646
31.6503
30.5364
29.4227
28.3096
27.1968
26.0842
24.9718
23.86
22.7485
21.637
20.526
19.4153
18.3045
17.1942
16.0841
14.9739
13.864
12.7543
11.6449
10.5353
9.42611
8.31699
7.20777
6.09882
4.98995
3.88092
2.77194
1.66319
0.554464
40.5707
39.4533
38.3365
37.22
36.1039
34.9886
33.8737
32.7591
31.645
30.5314
29.4179
28.305
27.1925
26.0801
24.9679
23.8563
22.745
21.6337
20.5229
19.4123
18.3018
17.1916
16.0817
14.9717
13.8619
12.7525
11.6432
10.5338
9.42476
8.3158
7.20674
6.09795
4.98924
3.88037
2.77155
1.66296
0.554385
40.5628
39.4457
38.3292
37.213
36.0973
34.9822
33.8676
32.7532
31.6394
30.5261
29.4128
28.3002
27.1879
26.0757
24.9638
23.8524
22.7413
21.6302
20.5196
19.4092
18.2989
17.1889
16.0792
14.9694
13.8598
12.7505
11.6414
10.5322
9.4233
8.31453
7.20563
6.09702
4.98848
3.87978
2.77112
1.6627
0.554301
40.5544
39.4377
38.3215
37.2056
36.0901
34.9754
33.8611
32.747
31.6335
30.5204
29.4074
28.295
27.1829
26.071
24.9593
23.8482
22.7373
21.6264
20.516
19.4059
18.2957
17.186
16.0764
14.9669
13.8574
12.7484
11.6395
10.5304
9.42176
8.31317
7.20446
6.09603
4.98767
3.87915
2.77068
1.66243
0.554211
40.5455
39.4291
38.3132
37.1977
36.0826
34.9681
33.8541
32.7403
31.6271
30.5143
29.4016
28.2895
27.1777
26.066
24.9546
23.8437
22.733
21.6224
20.5123
19.4023
18.2924
17.1829
16.0736
14.9642
13.855
12.7461
11.6374
10.5286
9.42012
8.31172
7.20321
6.09498
4.98681
3.87848
2.7702
1.66215
0.554116
40.536
39.4201
38.3046
37.1894
36.0746
34.9605
33.8468
32.7333
31.6204
30.5079
29.3955
28.2837
27.1722
26.0607
24.9496
23.839
22.7286
21.6182
20.5083
19.3986
18.2889
17.1796
16.0705
14.9614
13.8524
12.7438
11.6353
10.5267
9.41838
8.3102
7.20189
6.09387
4.9859
3.87778
2.7697
1.66185
0.554016
40.5261
39.4106
38.2954
37.1806
36.0662
34.9525
33.8391
32.726
31.6134
30.5012
29.3891
28.2776
27.1664
26.0552
24.9444
23.834
22.7239
21.6138
20.5041
19.3947
18.2853
17.1762
16.0673
14.9584
13.8497
12.7413
11.633
10.5246
9.41656
8.3086
7.20051
6.0927
4.98494
3.87704
2.76917
1.66153
0.55391
40.5157
39.4005
38.2858
37.1714
36.0574
34.944
33.831
32.7182
31.606
30.4941
29.3824
28.2712
27.1602
26.0494
24.9388
23.8288
22.7189
21.6091
20.4997
19.3906
18.2814
17.1726
16.064
14.9553
13.8468
12.7386
11.6306
10.5225
9.41464
8.30691
7.19905
6.09146
4.98394
3.87626
2.76861
1.6612
0.553799
40.5044
39.3897
38.2754
37.1614
36.0478
34.9348
33.8222
32.7098
31.598
30.4865
29.3751
28.2642
27.1536
26.0431
24.9329
23.8231
22.7136
21.604
20.495
19.3861
18.2772
17.1687
16.0603
14.9519
13.8437
12.7358
11.628
10.5201
9.41256
8.30508
7.19747
6.09013
4.98285
3.87541
2.76801
1.66083
0.553678
40.4919
39.3777
38.2639
37.1504
36.0372
34.9247
33.8126
32.7006
31.5891
30.478
29.367
28.2565
27.1463
26.0361
24.9263
23.8168
22.7076
21.5985
20.4897
19.3811
18.2726
17.1644
16.0563
14.9482
13.8403
12.7327
11.6252
10.5176
9.41027
8.30306
7.19572
6.08866
4.98165
3.87448
2.76734
1.66044
0.553545
40.4782
39.3645
38.2513
37.1382
36.0256
34.9135
33.8019
32.6903
31.5794
30.4687
29.3581
28.248
27.1382
26.0285
24.919
23.8099
22.7011
21.5923
20.4839
19.3757
18.2674
17.1596
16.0519
14.9441
13.8365
12.7292
11.622
10.5147
9.40773
8.30083
7.1938
6.08703
4.98032
3.87345
2.76661
1.65999
0.553398
40.463
39.35
38.2373
37.1248
36.0127
34.9012
33.7901
32.6791
31.5686
30.4584
29.3483
28.2387
27.1293
26.02
24.911
23.8023
22.6939
21.5855
20.4775
19.3697
18.2618
17.1543
16.047
14.9396
13.8323
12.7254
11.6185
10.5116
9.40494
8.29838
7.19168
6.08524
4.97886
3.87231
2.76579
1.65951
0.553236
40.4464
39.3339
38.2219
37.1101
35.9986
34.8877
33.7771
32.6667
31.5567
30.4471
29.3375
28.2284
27.1195
26.0107
24.9021
23.7939
22.686
21.578
20.4704
19.3631
18.2556
17.1485
16.0416
14.9346
13.8277
12.7212
11.6147
10.5081
9.40187
8.29567
7.18934
6.08327
4.97724
3.87106
2.7649
1.65897
0.553058
40.428
39.3163
38.205
37.0939
35.9831
34.8728
33.7629
32.653
31.5437
30.4346
29.3256
28.2171
27.1087
26.0005
24.8924
23.7847
22.6773
21.5698
20.4627
19.3558
18.2488
17.1422
16.0357
14.9291
13.8227
12.7165
11.6105
10.5043
9.39849
8.2927
7.18677
6.0811
4.97547
3.86968
2.76392
1.65838
0.552862
40.4079
39.297
38.1864
37.076
35.966
34.8564
33.7472
32.638
31.5294
30.4209
29.3126
28.2046
27.0969
25.9892
24.8817
23.7746
22.6677
21.5608
20.4542
19.3478
18.2413
17.1352
16.0292
14.9231
13.8171
12.7115
11.6059
10.5002
9.39477
8.28943
7.18394
6.07871
4.97353
3.86817
2.76284
1.65774
0.552646
40.3858
39.2758
38.1661
37.0565
35.9473
34.8385
33.73
32.6216
31.5137
30.4059
29.2983
28.191
27.0839
25.9769
24.87
23.7635
22.6572
21.5509
20.4449
19.339
18.2331
17.1275
16.022
14.9165
13.811
12.7059
11.6008
10.4956
9.3907
8.28585
7.18085
6.0761
4.97139
3.86651
2.76166
1.65703
0.55241
40.3616
39.2526
38.1438
37.0352
35.9268
34.8189
33.7112
32.6036
31.4965
30.3895
29.2826
28.1761
27.0697
25.9634
24.8572
23.7514
22.6457
21.54
20.4346
19.3294
18.2241
17.1191
16.0142
14.9093
13.8044
12.6998
11.5953
10.4906
9.38625
8.28193
7.17746
6.07324
4.96906
3.8647
2.76037
1.65625
0.552151
40.3352
39.2272
38.1195
37.0118
35.9044
34.7974
33.6907
32.584
31.4777
30.3716
29.2655
28.1598
27.0542
25.9486
24.8432
23.7381
22.6332
21.5282
20.4235
19.3189
18.2143
17.11
16.0057
14.9014
13.7971
12.6931
11.5892
10.4852
9.38138
8.27765
7.17376
6.07011
4.9665
3.86272
2.75895
1.65541
0.551869
40.3064
39.1996
38.093
36.9864
35.88
34.7741
33.6684
32.5626
31.4573
30.3521
29.2469
28.142
27.0373
25.9326
24.828
23.7237
22.6195
21.5153
20.4113
19.3075
18.2036
17.1
15.9964
14.8928
13.7892
12.6859
11.5826
10.4792
9.37608
8.27298
7.16973
6.06671
4.96372
3.86056
2.75741
1.65448
0.551561
40.2752
39.1696
38.0642
36.9588
35.8536
34.7488
33.6441
32.5394
31.4351
30.3309
29.2266
28.1227
27.019
25.9151
24.8114
23.708
22.6047
21.5013
20.3982
19.2951
18.192
17.0891
15.9863
14.8834
13.7806
12.678
11.5754
10.4728
9.37032
8.26792
7.16535
6.06301
4.96071
3.85821
2.75574
1.65348
0.551227
40.2414
39.1372
38.0331
36.9289
35.825
34.7213
33.6178
32.5143
31.411
30.3079
29.2048
28.1019
26.9991
25.8962
24.7935
23.691
22.5886
21.4861
20.3839
19.2817
18.1794
17.0774
15.9754
14.8733
13.7713
12.6695
11.5677
10.4658
9.36408
8.26243
7.16061
6.05901
4.95744
3.85568
2.75393
1.65239
0.550865
40.205
39.1022
37.9995
36.8967
35.7941
34.6917
33.5895
32.4872
31.3851
30.2832
29.1811
28.0794
26.9777
25.8759
24.7741
23.6727
22.5713
21.4697
20.3685
19.2672
18.1659
17.0647
15.9636
14.8624
13.7612
12.6602
11.5593
10.4582
9.35736
8.25652
7.1555
6.0547
4.95391
3.85294
2.75198
1.65122
0.550475
40.1659
39.0646
37.9634
36.8621
35.7609
34.66
33.5591
32.4581
31.3573
30.2566
29.1558
28.0552
26.9547
25.854
24.7534
23.653
22.5527
21.4522
20.3519
19.2517
18.1513
17.0511
15.951
14.8507
13.7504
12.6504
11.5503
10.4501
9.35014
8.25017
7.15001
6.05006
4.95013
3.85
2.74988
1.64997
0.550056
40.1241
39.0245
37.9249
36.8252
35.7255
34.626
33.5266
32.427
31.3276
30.2282
29.1287
28.0294
26.9301
25.8306
24.7312
23.632
22.5328
21.4334
20.3342
19.2351
18.1357
17.0366
15.9375
14.8382
13.7389
12.6398
11.5407
10.4415
9.34243
8.24338
7.14414
6.04511
4.94609
3.84686
2.74764
1.64862
0.549609
40.0797
38.9819
37.884
36.786
35.6879
34.59
33.4921
32.3939
31.296
30.1981
29.0999
28.002
26.904
25.8058
24.7076
23.6097
22.5117
21.4135
20.3154
19.2174
18.1192
17.0212
15.9231
14.8249
13.7266
12.6286
11.5305
10.4323
9.33423
8.23617
7.13791
6.03985
4.94179
3.84353
2.74526
1.6472
0.549133
40.033
38.937
37.8409
36.7446
35.6482
34.552
33.4557
32.3591
31.2627
30.1663
29.0696
27.973
26.8765
25.7797
24.6828
23.5861
22.4894
21.3924
20.2956
19.1988
18.1018
17.0049
15.908
14.8109
13.7137
12.6168
11.5198
10.4226
9.32559
8.22857
7.13134
6.03431
4.93726
3.84001
2.74275
1.64569
0.548632
39.984
38.89
37.7958
36.7013
35.6067
34.5122
33.4176
32.3227
31.2279
30.133
29.0378
27.9428
26.8477
25.7523
24.6568
23.5615
22.4661
21.3704
20.2749
19.1793
18.0835
16.9878
15.8921
14.7962
13.7002
12.6044
11.5085
10.4124
9.31654
8.22061
7.12446
6.0285
4.93252
3.83633
2.74012
1.64412
0.548107
39.9334
38.8413
37.7491
36.6565
35.5637
34.471
33.3782
32.285
31.1918
30.0986
29.005
27.9115
26.8178
25.7239
24.6299
23.5359
22.4419
21.3476
20.2534
19.1592
18.0646
16.9702
15.8757
14.781
13.6862
12.5916
11.4969
10.4019
9.30718
8.21238
7.11735
6.02249
4.92761
3.83252
2.73741
1.64249
0.547564
39.8815
38.7915
37.7013
36.6106
35.5198
34.4289
33.3378
32.2463
31.1549
30.0633
28.9713
27.8794
26.7873
25.6949
24.6023
23.5098
22.4172
21.3243
20.2314
19.1385
18.0453
16.9521
15.8589
14.7654
13.6719
12.5784
11.4849
10.3912
9.29757
8.20393
7.11004
6.01633
4.92258
3.82861
2.73462
1.64082
0.547007
39.8292
38.7413
37.6531
36.5644
35.4754
34.3864
33.2971
32.2074
31.1177
30.0277
28.9374
27.847
26.7565
25.6656
24.5745
23.4835
22.3923
21.3007
20.2093
19.1177
18.0257
16.9339
15.842
14.7497
13.6574
12.5652
11.4729
10.3803
9.28791
8.19543
7.10269
6.01012
4.91751
3.82467
2.73181
1.63913
0.546446
39.7774
38.6916
37.6053
36.5186
35.4315
34.3443
33.2568
32.1688
31.0808
29.9925
28.9037
27.815
26.726
25.6366
24.5469
23.4573
22.3676
21.2774
20.1873
19.097
18.0064
16.9158
15.8251
14.7341
13.643
12.552
11.4609
10.3696
9.27829
8.18697
7.09539
6.00395
4.91247
3.82076
2.72902
1.63746
0.545888
39.7274
38.6435
37.5592
36.4743
35.389
34.3036
33.2178
32.1315
31.0451
29.9584
28.8712
27.784
26.6965
25.6085
24.5203
23.4321
22.3437
21.2548
20.166
19.077
17.9877
16.8984
15.8089
14.7191
13.6292
12.5394
11.4494
10.3592
9.26903
8.17882
7.08834
5.99801
4.90762
3.81699
2.72633
1.63585
0.545351
39.6805
38.5984
37.5159
36.4327
35.3492
34.2654
33.1812
32.0965
31.0117
29.9265
28.8407
27.7549
26.6688
25.5822
24.4953
23.4084
22.3213
21.2337
20.1461
19.0583
17.9701
16.882
15.7936
14.705
13.6162
12.5274
11.4385
10.3494
9.2603
8.17114
7.0817
5.9924
4.90304
3.81344
2.72379
1.63433
0.544844
39.6385
38.5581
37.4772
36.3956
35.3135
34.2312
33.1485
32.0652
30.9817
29.8979
28.8134
27.7289
26.644
25.5586
24.473
23.3872
22.3012
21.2148
20.1283
19.0415
17.9544
16.8673
15.78
14.6924
13.6045
12.5168
11.4289
10.3407
9.25253
8.16431
7.0758
5.98742
4.89897
3.81027
2.72154
1.63297
0.544394
39.6034
38.5244
37.4448
36.3645
35.2837
34.2027
33.1212
32.039
30.9567
29.8739
28.7906
27.7071
26.6233
25.5389
24.4542
23.3695
22.2844
21.1989
20.1133
19.0275
17.9413
16.855
15.7686
14.6817
13.5948
12.5078
11.4207
10.3333
9.24598
8.15854
7.07081
5.9832
4.89553
3.8076
2.71963
1.63183
0.544013
39.5775
38.4995
37.4209
36.3416
35.2618
34.1816
33.101
32.0197
30.9382
29.8563
28.7738
27.6911
26.608
25.5244
24.4405
23.3564
22.2721
21.1872
20.1023
19.0172
17.9316
16.846
15.7602
14.674
13.5876
12.5013
11.4148
10.3279
9.24119
8.15433
7.06717
5.98013
4.89302
3.80566
2.71824
1.631
0.543735
39.5632
38.4858
37.4077
36.329
35.2496
34.17
33.0899
32.0091
30.928
29.8466
28.7645
27.6822
26.5996
25.5164
24.4328
23.3492
22.2652
21.1807
20.0962
19.0114
17.9262
16.841
15.7555
14.6696
13.5836
12.4976
11.4114
10.3249
9.23851
8.15197
7.06513
5.97841
4.89162
3.80456
2.71746
1.63053
0.543579
)
;

boundaryField
{
    ground
    {
        type            calculated;
        value           uniform 0;
    }
    topBotBoundaries
    {
        type            calculated;
        value           nonuniform List<scalar> 
74
(
39.5631
38.4857
37.4076
36.3289
35.2495
34.1699
33.0898
32.009
30.928
29.8465
28.7644
27.6821
26.5995
25.5163
24.4328
23.3491
22.2651
21.1807
20.0962
19.0114
17.9262
16.8409
15.7555
14.6696
13.5836
12.4976
11.4114
10.3249
9.23849
8.15195
7.06512
5.9784
4.89161
3.80455
2.71746
1.63053
0.543578
39.5632
38.4858
37.4077
36.329
35.2496
34.17
33.0899
32.0091
30.928
29.8466
28.7645
27.6822
26.5996
25.5164
24.4328
23.3492
22.2652
21.1807
20.0962
19.0114
17.9262
16.841
15.7555
14.6696
13.5836
12.4976
11.4114
10.3249
9.23851
8.15197
7.06513
5.97841
4.89162
3.80456
2.71746
1.63053
0.543579
)
;
    }
    frontBack
    {
        type            empty;
    }
    dielectric_to_region0
    {
        type            calculated;
        value           nonuniform List<scalar> 
98
(
40.1016
40.1162
40.1426
40.1784
40.2213
40.2691
40.3202
40.373
40.4264
40.4793
40.531
40.5809
40.6287
40.6739
40.7166
40.7565
40.7937
40.8281
40.86
40.8893
40.9163
40.9409
40.9635
40.9841
41.0028
41.0198
41.0353
41.0493
41.062
41.0736
41.0842
41.0943
41.104
41.1131
41.1217
41.1297
41.1372
41.1442
41.1507
41.1565
41.1618
41.1666
41.1707
41.1743
41.1772
41.1796
41.1814
41.1826
41.1832
41.1832
41.1826
41.1814
41.1796
41.1773
41.1743
41.1707
41.1666
41.1618
41.1565
41.1507
41.1443
41.1373
41.1298
41.1217
41.1131
41.104
41.0944
41.0843
41.0736
41.0621
41.0494
41.0354
41.0199
41.0029
40.9841
40.9636
40.941
40.9164
40.8894
40.8601
40.8282
40.7938
40.7566
40.7167
40.674
40.6287
40.581
40.5311
40.4794
40.4265
40.3731
40.3203
40.2692
40.2214
40.1785
40.1427
40.1163
40.1017
)
;
    }
}


// ************************************************************************* //
